Folder: bamboo

File: bamboo-d-9mm.csv
Time sec,Extension mm,Load kgf,Compressive stress MPa,Cycle Count ,Total Cycle Count ,Repetitions Count ,Marked Data ,PIP Count ,Compressive extension mm,Compressive strain %,Compressive load kgf,Displacement (Strain 1) mm,True strain %,Corrected Position mm,True stress Pa
0,0,-0.03813029,0.0002224793,0,0,0,0,0,0,0,0.03813029,0,0,0,222.4793
5.5,-0.0916573,-75.05235,0.437909,0,0,0,0,0,0.0916573,0.4883181,75.05235,0,0.4895142,-0.0916573,435770.6
11,-0.1834342,-351.7699,2.052476,0,0,0,0,0,0.1834342,0.9772732,351.7699,0,0.9820799,-0.1834342,2032418
16.5,-0.2750915,-754.3796,4.401589,0,0,0,0,0,0.2750915,1.465591,754.3796,0,1.476437,-0.2750915,4337080
22,-0.366689,-1231.682,7.186513,0,0,0,0,0,0.366689,1.953591,1231.682,0,1.972926,-0.366689,7046118
27.5,-0.4582865,-1769.076,10.32205,0,0,0,0,0,0.4582865,2.44159,1769.076,0,2.471891,-0.4582865,1.01E+07
33,-0.5499438,-2302.339,13.43349,0,0,0,0,0,0.5499438,2.929908,2302.339,0,2.973687,-0.5499438,1.30E+07
38.5,-0.6417805,-2788.984,16.27292,0,0,0,0,0,0.6417805,3.419182,2788.984,0,3.479004,-0.6417805,1.57E+07
44,-0.7334378,-3197.525,18.65664,0,0,0,0,0,0.7334378,3.907501,3197.525,0,3.985892,-0.7334378,1.79E+07
49.5,-0.824856,-3513.102,20.49794,0,0,0,0,0,0.824856,4.394544,3513.102,0,4.49403,-0.824856,1.96E+07
55,-0.916573,-3756.503,21.91812,0,0,0,0,0,0.916573,4.883181,3756.503,0,5.006437,-0.916573,2.08E+07
60.5,-1.008469,-3955.952,23.08184,0,0,0,0,0,1.00847,5.372773,3955.952,0,5.522494,-1.008469,2.18E+07
66,-1.100067,-4120.353,24.04108,0,0,0,0,0,1.100067,5.860773,4120.353,0,6.039536,-1.100067,2.26E+07
71.5,-1.191724,-4253.584,24.81845,0,0,0,0,0,1.191724,6.349091,4253.584,0,6.559605,-1.191724,2.32E+07
77,-1.283322,-4356.701,25.4201,0,0,0,0,0,1.283322,6.83709,4356.701,0,7.082051,-1.283322,2.37E+07
82.50001,-1.374919,-4433.564,25.86858,0,0,0,0,0,1.374919,7.32509,4433.564,0,7.607241,-1.374919,2.40E+07
88.00001,-1.466756,-4494.24,26.2226,0,0,0,0,0,1.466756,7.814364,4494.24,0,8.136586,-1.466756,2.42E+07
93.50001,-1.558294,-4542.553,26.5045,0,0,0,0,0,1.558294,8.302045,4542.553,0,8.667011,-1.558294,2.43E+07
99.00001,-1.650011,-4584.713,26.75049,0,0,0,0,0,1.650011,8.790682,4584.713,0,9.201312,-1.650011,2.44E+07
104.5,-1.741608,-4620.559,26.95964,0,0,0,0,0,1.741608,9.27868,4620.559,0,9.737779,-1.741608,2.45E+07
110,-1.833266,-4656.933,27.17187,0,0,0,0,0,1.833266,9.766998,4656.933,0,10.2775,-1.833266,2.45E+07
115.5,-1.925102,-4688.394,27.35544,0,0,0,0,0,1.925102,10.25627,4688.394,0,10.8212,-1.925102,2.45E+07
121,-2.01676,-4715.567,27.51398,0,0,0,0,0,2.01676,10.74459,4715.567,0,11.36682,-2.01676,2.46E+07
126.5,-2.108178,-4743.286,27.67572,0,0,0,0,0,2.108178,11.23164,4743.286,0,11.91398,-2.108178,2.46E+07
132,-2.200015,-4770.661,27.83544,0,0,0,0,0,2.200015,11.72091,4770.661,0,12.46669,-2.200015,2.46E+07
137.5,-2.291732,-4798.711,27.99911,0,0,0,0,0,2.291732,12.20954,4798.711,0,13.02174,-2.291732,2.46E+07
143,-2.383449,-4823.992,28.14661,0,0,0,0,0,2.383449,12.69818,4823.992,0,13.57989,-2.383449,2.46E+07
148.5,-2.474987,-4847.25,28.28232,0,0,0,0,0,2.474987,13.18586,4847.25,0,14.14007,-2.474987,2.46E+07
154,-2.566465,-4871.828,28.42572,0,0,0,0,0,2.566464,13.67323,4871.828,0,14.70304,-2.566465,2.45E+07
159.5,-2.658421,-4898.788,28.58302,0,0,0,0,0,2.658421,14.16314,4898.788,0,15.27216,-2.658421,2.45E+07
165,-2.750197,-4926.334,28.74375,0,0,0,0,0,2.750197,14.65209,4926.334,0,15.84342,-2.750197,2.45E+07
170.5,-2.841735,-4947.668,28.86823,0,0,0,0,0,2.841735,15.13977,4947.668,0,16.41647,-2.841735,2.45E+07
176,-2.933393,-4971.44,29.00693,0,0,0,0,0,2.933393,15.62809,4971.44,0,16.99357,-2.933393,2.45E+07
181.5,-3.02493,-4996.679,29.15419,0,0,0,0,0,3.02493,16.11577,4996.679,0,17.57326,-3.02493,2.45E+07
187,-3.116707,-5023.286,29.30943,0,0,0,0,0,3.116707,16.60473,5023.286,0,18.15785,-3.116707,2.44E+07
192.5,-3.208544,-5052.17,29.47796,0,0,0,0,0,3.208544,17.094,5052.17,0,18.74627,-3.208544,2.44E+07
198,-3.300141,-5080.023,29.64048,0,0,0,0,0,3.300141,17.582,5080.022,0,19.33663,-3.300141,2.44E+07
203.5,-3.391619,-5110.182,29.81645,0,0,0,0,0,3.391619,18.06936,5110.182,0,19.92972,-3.391619,2.44E+07
209,-3.483277,-5139.827,29.98942,0,0,0,0,0,3.483277,18.55768,5139.828,0,20.52751,-3.483277,2.44E+07
214.5,-3.575053,-5166.089,30.14265,0,0,0,0,0,3.575053,19.04663,5166.088,0,21.12969,-3.575053,2.44E+07
220,-3.666771,-5194.288,30.30718,0,0,0,0,0,3.666771,19.53527,5194.288,0,21.73513,-3.666771,2.44E+07
225.5,-3.758189,-5222.997,30.47469,0,0,0,0,0,3.758189,20.02232,5222.998,0,22.34225,-3.758189,2.44E+07
231,-3.849906,-5251.054,30.6384,0,0,0,0,0,3.849906,20.51095,5251.054,0,22.95509,-3.849906,2.44E+07
236.5,-3.941802,-5283.574,30.82814,0,0,0,0,0,3.941802,21.00054,5283.574,0,23.57292,-3.941802,2.44E+07
242,-4.03334,-5314.895,31.01089,0,0,0,0,0,4.03334,21.48823,5314.895,0,24.19216,-4.03334,2.43E+07
247.5,-4.124997,-5342.754,31.17344,0,0,0,0,0,4.124997,21.97654,5342.754,0,24.81607,-4.124997,2.43E+07
253,-4.216595,-5373.481,31.35272,0,0,0,0,0,4.216595,22.46454,5373.481,0,25.44349,-4.216595,2.43E+07
258.5,-4.308312,-5402.322,31.521,0,0,0,0,0,4.308312,22.95318,5402.322,0,26.07569,-4.308312,2.43E+07
264,-4.400089,-5432.824,31.69897,0,0,0,0,0,4.400089,23.44213,5432.824,0,26.71233,-4.400089,2.43E+07
269.5,-4.491686,-5466.427,31.89504,0,0,0,0,0,4.491686,23.93013,5466.427,0,27.3518,-4.491686,2.43E+07
275,-4.583284,-5501.275,32.09837,0,0,0,0,0,4.583284,24.41813,5501.275,0,27.99538,-4.583284,2.43E+07
280.5,-4.674941,-5538.305,32.31442,0,0,0,0,0,4.674941,24.90645,5538.305,0,28.64356,-4.674941,2.43E+07
286,-4.766718,-5575.19,32.52964,0,0,0,0,0,4.766718,25.39541,5575.189,0,29.29681,-4.766718,2.43E+07
291.5,-4.858495,-5614.209,32.7573,0,0,0,0,0,4.858494,25.88436,5614.208,0,29.95436,-4.858495,2.43E+07
297,-4.950032,-5653.515,32.98664,0,0,0,0,0,4.950032,26.37204,5653.516,0,30.61454,-4.950032,2.43E+07
302.5,-5.04169,-5695.992,33.23448,0,0,0,0,0,5.04169,26.86036,5695.992,0,31.27997,-5.04169,2.43E+07
308,-5.133407,-5741.267,33.49865,0,0,0,0,0,5.133407,27.349,5741.267,0,31.9503,-5.133407,2.43E+07
313.5,-5.225124,-5787.508,33.76845,0,0,0,0,0,5.225124,27.83764,5787.508,0,32.62515,-5.225124,2.44E+07
319,-5.316662,-5833.726,34.03812,0,0,0,0,0,5.316661,28.32532,5833.727,0,33.30326,-5.316662,2.44E+07
324.5,-5.408319,-5877.389,34.29288,0,0,0,0,0,5.408319,28.81363,5877.389,0,33.98689,-5.408319,2.44E+07
330,-5.500036,-5922.586,34.55659,0,0,0,0,0,5.500036,29.30227,5922.586,0,34.67567,-5.500036,2.44E+07
335.5,-5.591753,-5963.897,34.79763,0,0,0,0,0,5.591753,29.79091,5963.896,0,35.36924,-5.591753,2.44E+07
341,-5.68353,-6004.077,35.03207,0,0,0,0,0,5.68353,30.27986,6004.077,0,36.0681,-5.68353,2.44E+07
346.5,-5.775128,-6042.823,35.25814,0,0,0,0,0,5.775128,30.76786,6042.823,0,36.7705,-5.775128,2.44E+07
352,-5.866546,-6091.804,35.54393,0,0,0,0,0,5.866546,31.25491,6091.804,0,37.47648,-5.866546,2.44E+07
357.5,-5.958323,-6151.646,35.89309,0,0,0,0,0,5.958323,31.74386,6151.646,0,38.19028,-5.958323,2.45E+07
363,-6.050279,-6215.895,36.26797,0,0,0,0,0,6.050279,32.23377,6215.896,0,38.91062,-6.050279,2.46E+07
368.5,-6.141817,-6279.589,36.6396,0,0,0,0,0,6.141817,32.72145,6279.589,0,39.63288,-6.141817,2.47E+07
374,-6.233354,-6342.68,37.00772,0,0,0,0,0,6.233354,33.20913,6342.68,0,40.36038,-6.233354,2.47E+07
379.5,-6.324952,-6409.44,37.39725,0,0,0,0,0,6.324953,33.69714,6409.44,0,41.09371,-6.324952,2.48E+07
385,-6.416609,-6473.31,37.76991,0,0,0,0,0,6.416609,34.18545,6473.31,0,41.83293,-6.416609,2.49E+07
390.5,-6.508506,-6531.249,38.10797,0,0,0,0,0,6.508506,34.67505,6531.249,0,42.57961,-6.508506,2.49E+07
396,-6.600044,-6601.046,38.51521,0,0,0,0,0,6.600044,35.16273,6601.046,0,43.32895,-6.600044,2.50E+07
401.5,-6.691521,-6680.56,38.97916,0,0,0,0,0,6.691521,35.65009,6680.56,0,44.08346,-6.691521,2.51E+07
407,-6.783238,-6769.911,39.50049,0,0,0,0,0,6.783238,36.13873,6769.911,0,44.8457,-6.783238,2.52E+07
412.5,-6.874896,-6866.35,40.06319,0,0,0,0,0,6.874896,36.62704,6866.35,0,45.61329,-6.874896,2.54E+07
418,-6.966732,-6968.667,40.66018,0,0,0,0,0,6.966733,37.11631,6968.667,0,46.38834,-6.966732,2.56E+07
423.5,-7.05839,-7070.062,41.25179,0,0,0,0,0,7.05839,37.60463,7070.062,0,47.16792,-7.05839,2.57E+07
429,-7.149808,-7165.889,41.81091,0,0,0,0,0,7.149808,38.09168,7165.889,0,47.95156,-7.149808,2.59E+07
434.5,-7.241644,-7274.665,42.44559,0,0,0,0,0,7.241644,38.58095,7274.665,0,48.74501,-7.241644,2.61E+07
440,-7.333481,-7387.982,43.10676,0,0,0,0,0,7.333481,39.07022,7387.982,0,49.54482,-7.333481,2.63E+07
445.5,-7.424959,-7500.187,43.76144,0,0,0,0,0,7.424959,39.55759,7500.187,0,50.34791,-7.424959,2.65E+07
451,-7.516617,-7624.631,44.48754,0,0,0,0,0,7.516617,40.04591,7624.631,0,51.1591,-7.516617,2.67E+07
456.5,-7.608154,-7751.671,45.22878,0,0,0,0,0,7.608154,40.53358,7751.671,0,51.97585,-7.608154,2.69E+07
462,-7.70017,-7884.279,46.00251,0,0,0,0,0,7.700171,41.02382,7884.279,0,52.80365,-7.70017,2.71E+07
467.5,-7.791888,-8017.403,46.77925,0,0,0,0,0,7.791888,41.51245,8017.402,0,53.63563,-7.791888,2.74E+07
473,-7.883306,-8153.439,47.57298,0,0,0,0,0,7.883306,41.9995,8153.439,0,54.47185,-7.883306,2.76E+07
478.5,-7.975023,-8290.564,48.37307,0,0,0,0,0,7.975023,42.48814,8290.564,0,55.3179,-7.975023,2.78E+07
484,-8.06662,-8427.544,49.17231,0,0,0,0,0,8.06662,42.97613,8427.544,0,56.17002,-8.06662,2.80E+07
489.5,-8.158337,-8574.588,50.03026,0,0,0,0,0,8.158337,43.46477,8574.588,0,57.03062,-8.158337,2.83E+07
495,-8.250293,-8731.889,50.94807,0,0,0,0,0,8.250293,43.95468,8731.889,0,57.90095,-8.250293,2.86E+07
500.5,-8.341771,-8891.436,51.87898,0,0,0,0,0,8.341771,44.44204,8891.436,0,58.77434,-8.341771,2.88E+07
506,-8.433309,-9051.704,52.8141,0,0,0,0,0,8.43331,44.92973,9051.704,0,59.65601,-8.433309,2.91E+07
511.5,-8.525086,-9231,53.86024,0,0,0,0,0,8.525086,45.41868,9231,0,60.54785,-8.525086,2.94E+07
517,-8.616743,-9408.948,54.89852,0,0,0,0,0,8.616744,45.907,9408.948,0,61.44654,-8.616743,2.97E+07
522.5,-8.70846,-9596.585,55.99332,0,0,0,0,0,8.70846,46.39563,9596.585,0,62.35396,-8.70846,3.00E+07
528,-8.799878,-9786.612,57.10208,0,0,0,0,0,8.799878,46.88268,9786.612,0,63.26671,-8.799878,3.03E+07
533.5,-8.891536,-9977.942,58.21844,0,0,0,0,0,8.891536,47.37099,9977.942,0,64.19028,-8.891536,3.06E+07
539,-8.983492,-10177.66,59.38374,0,0,0,0,0,8.983492,47.8609,10177.66,0,65.12551,-8.983492,3.10E+07
540.14,-9.002206,-10216.02,59.60753,0,0,0,0,0,9.002207,47.96061,10216.02,0,65.31693,-9.002206,3.10E+07

File: bamboo-d-18mm.csv
Time sec,Extension mm,Load kgf,Compressive stress MPa,Cycle Count ,Total Cycle Count ,Repetitions Count ,Marked Data ,PIP Count ,Compressive extension mm,Compressive strain %,Compressive load kgf,Displacement (Strain 1) mm,True strain %,Corrected Position mm,True stress Pa
0,-9.008364,-8149.267,47.54864,0,0,0,0,0,9.008365,47.99342,8149.268,0,65.37999,-9.008364,2.47E+07
0.2,-9.009022,-8150.016,47.55301,0,0,0,0,0,9.009022,47.99692,8150.016,0,65.38673,-9.009022,2.47E+07
0.378,-9.012909,-8188.159,47.77557,0,0,0,0,0,9.012909,48.01763,8188.159,0,65.42655,-9.012909,2.48E+07
0.532,-9.016854,-8239.873,48.07729,0,0,0,0,0,9.016854,48.03865,8239.872,0,65.467,-9.016854,2.50E+07
0.7320001,-9.020203,-8280.906,48.31672,0,0,0,0,0,9.020203,48.05649,8280.906,0,65.50133,-9.020203,2.51E+07
0.9320001,-9.02391,-8324.361,48.57026,0,0,0,0,0,9.023911,48.07624,8324.361,0,65.53937,-9.02391,2.52E+07
1.132,-9.027079,-8362.084,48.79036,0,0,0,0,0,9.027079,48.09312,8362.084,0,65.57188,-9.027079,2.53E+07
1.332,-9.030547,-8400.831,49.01644,0,0,0,0,0,9.030546,48.1116,8400.831,0,65.60749,-9.030547,2.54E+07
1.532,-9.033835,-8438.493,49.23619,0,0,0,0,0,9.033834,48.12912,8438.493,0,65.64125,-9.033835,2.55E+07
1.732,-9.037124,-8475.535,49.45232,0,0,0,0,0,9.037124,48.14664,8475.535,0,65.67504,-9.037124,2.56E+07
1.932,-9.040352,-8510.301,49.65517,0,0,0,0,0,9.040352,48.16383,8510.302,0,65.70821,-9.040352,2.57E+07
2.132,-9.04382,-8547.578,49.87267,0,0,0,0,0,9.043819,48.18231,8547.578,0,65.74386,-9.04382,2.58E+07
2.332,-9.047048,-8583.228,50.08068,0,0,0,0,0,9.047048,48.19951,8583.229,0,65.77706,-9.047048,2.59E+07
2.532,-9.050457,-8618.88,50.2887,0,0,0,0,0,9.050457,48.21767,8618.88,0,65.81212,-9.050457,2.60E+07
2.732,-9.053924,-8656.248,50.50673,0,0,0,0,0,9.053924,48.23614,8656.248,0,65.8478,-9.053924,2.61E+07
2.932,-9.057153,-8689.901,50.70309,0,0,0,0,0,9.057153,48.25335,8689.901,0,65.88104,-9.057153,2.62E+07
3.132,-9.060501,-8724.082,50.90252,0,0,0,0,0,9.060501,48.27118,8724.082,0,65.91552,-9.060501,2.63E+07
3.332,-9.064029,-8761.116,51.1186,0,0,0,0,0,9.064029,48.28998,8761.116,0,65.95186,-9.064029,2.64E+07
3.532,-9.067078,-8793.183,51.3057,0,0,0,0,0,9.067078,48.30622,8793.183,0,65.98327,-9.067078,2.65E+07
3.732,-9.070367,-8826.305,51.49897,0,0,0,0,0,9.070367,48.32374,8826.306,0,66.01717,-9.070367,2.66E+07
3.932,-9.073894,-8863.696,51.71713,0,0,0,0,0,9.073895,48.34254,8863.696,0,66.05355,-9.073894,2.67E+07
4.132,-9.077182,-8897.616,51.91504,0,0,0,0,0,9.077182,48.36005,8897.616,0,66.08747,-9.077182,2.68E+07
4.332,-9.080531,-8930.736,52.10829,0,0,0,0,0,9.080531,48.3779,8930.736,0,66.12202,-9.080531,2.69E+07
4.532,-9.083879,-8963.687,52.30055,0,0,0,0,0,9.083879,48.39573,8963.688,0,66.15658,-9.083879,2.70E+07
4.732,-9.087346,-9000.298,52.51416,0,0,0,0,0,9.087346,48.4142,9000.298,0,66.19238,-9.087346,2.71E+07
4.932,-9.090395,-9030.088,52.68798,0,0,0,0,0,9.090395,48.43045,9030.088,0,66.22387,-9.090395,2.72E+07
5.132,-9.093743,-9062.972,52.87985,0,0,0,0,0,9.093742,48.44828,9062.973,0,66.25847,-9.093743,2.73E+07
5.332,-9.097271,-9099.054,53.09037,0,0,0,0,0,9.097271,48.46708,9099.054,0,66.29494,-9.097271,2.74E+07
5.532,-9.100381,-9130.961,53.27654,0,0,0,0,0,9.100381,48.48365,9130.961,0,66.3271,-9.100381,2.74E+07
5.732,-9.103729,-9163.687,53.46749,0,0,0,0,0,9.103729,48.50149,9163.687,0,66.36173,-9.103729,2.75E+07
5.932,-9.107376,-9200.764,53.68382,0,0,0,0,0,9.107376,48.52092,9200.764,0,66.39946,-9.107376,2.76E+07
6.132,-9.110485,-9231.577,53.86361,0,0,0,0,0,9.110485,48.53748,9231.577,0,66.43164,-9.110485,2.77E+07
6.332,-9.113594,-9262.094,54.04166,0,0,0,0,0,9.113594,48.55404,9262.094,0,66.46383,-9.113594,2.78E+07
6.532,-9.117181,-9298.322,54.25305,0,0,0,0,0,9.117181,48.57315,9298.322,0,66.50099,-9.117181,2.79E+07
6.732,-9.12047,-9331.574,54.44706,0,0,0,0,0,9.12047,48.59068,9331.574,0,66.53506,-9.12047,2.80E+07
6.932,-9.123639,-9356.813,54.59433,0,0,0,0,0,9.123639,48.60756,9356.813,0,66.56791,-9.123639,2.81E+07
7.132,-9.127405,-9395.849,54.82209,0,0,0,0,0,9.127405,48.62762,9395.85,0,66.60696,-9.127405,2.82E+07
7.332,-9.130395,-9424.124,54.98706,0,0,0,0,0,9.130396,48.64355,9424.124,0,66.63798,-9.130395,2.82E+07
7.532,-9.133743,-9456.37,55.17521,0,0,0,0,0,9.133743,48.66139,9456.37,0,66.67272,-9.133743,2.83E+07
7.732,-9.13733,-9491.648,55.38105,0,0,0,0,0,9.13733,48.6805,9491.647,0,66.70994,-9.13733,2.84E+07
7.932,-9.140559,-9522.213,55.55939,0,0,0,0,0,9.140559,48.6977,9522.213,0,66.74347,-9.140559,2.85E+07
8.132,-9.143549,-9550.037,55.72173,0,0,0,0,0,9.143549,48.71363,9550.037,0,66.77452,-9.143549,2.86E+07
8.332001,-9.147315,-9586.273,55.93316,0,0,0,0,0,9.147315,48.7337,9586.273,0,66.81365,-9.147315,2.87E+07
8.532001,-9.150603,-9617.994,56.11824,0,0,0,0,0,9.150603,48.75122,9617.993,0,66.84783,-9.150603,2.88E+07
8.732,-9.153593,-9645.872,56.2809,0,0,0,0,0,9.153593,48.76714,9645.871,0,66.87891,-9.153593,2.88E+07
8.932,-9.15724,-9680.232,56.48138,0,0,0,0,0,9.15724,48.78658,9680.232,0,66.91685,-9.15724,2.89E+07
9.132,-9.160708,-9713.112,56.67323,0,0,0,0,0,9.160708,48.80505,9713.112,0,66.95294,-9.160708,2.90E+07
9.332001,-9.163638,-9740.012,56.83018,0,0,0,0,0,9.163638,48.82066,9740.012,0,66.98343,-9.163638,2.91E+07
9.532001,-9.167165,-9772.365,57.01894,0,0,0,0,0,9.167165,48.83945,9772.364,0,67.02014,-9.167165,2.92E+07
9.732,-9.170633,-9805.326,57.21127,0,0,0,0,0,9.170633,48.85793,9805.326,0,67.05627,-9.170633,2.93E+07
9.932,-9.173742,-9833.406,57.37511,0,0,0,0,0,9.173742,48.87449,9833.406,0,67.08866,-9.173742,2.93E+07
10.132,-9.176971,-9861.961,57.54172,0,0,0,0,0,9.17697,48.89169,9861.961,0,67.12232,-9.176971,2.94E+07
10.332,-9.180797,-9897.427,57.74865,0,0,0,0,0,9.180797,48.91208,9897.427,0,67.16221,-9.180797,2.95E+07
10.532,-9.183667,-9924.648,57.90747,0,0,0,0,0,9.183667,48.92737,9924.647,0,67.19214,-9.183667,2.96E+07
10.732,-9.186956,-9953.117,58.07358,0,0,0,0,0,9.186955,48.94489,9953.116,0,67.22645,-9.186956,2.96E+07
10.932,-9.190603,-9986.717,58.26963,0,0,0,0,0,9.190603,48.96432,9986.717,0,67.26452,-9.190603,2.97E+07
11.132,-9.193652,-10014.46,58.43151,0,0,0,0,0,9.193652,48.98056,10014.46,0,67.29636,-9.193652,2.98E+07
11.332,-9.19706,-10045.57,58.61301,0,0,0,0,0,9.19706,48.99872,10045.57,0,67.33194,-9.19706,2.99E+07
11.532,-9.200647,-10076.43,58.79311,0,0,0,0,0,9.200647,49.01783,10076.43,0,67.36943,-9.200647,3.00E+07
11.732,-9.203816,-10105.56,58.96302,0,0,0,0,0,9.203816,49.03472,10105.56,0,67.40255,-9.203816,3.01E+07
11.932,-9.207105,-10134.81,59.13372,0,0,0,0,0,9.207105,49.05224,10134.81,0,67.43693,-9.207105,3.01E+07
12.132,-9.210513,-10163.88,59.30331,0,0,0,0,0,9.210512,49.07039,10163.88,0,67.47257,-9.210513,3.02E+07
12.332,-9.213742,-10191.91,59.46687,0,0,0,0,0,9.213742,49.0876,10191.91,0,67.50636,-9.213742,3.03E+07
12.532,-9.217149,-10221.1,59.6372,0,0,0,0,0,9.21715,49.10575,10221.1,0,67.54202,-9.217149,3.04E+07
12.732,-9.220438,-10250.98,59.81155,0,0,0,0,0,9.220438,49.12327,10250.98,0,67.57646,-9.220438,3.04E+07
12.932,-9.223846,-10279.16,59.97596,0,0,0,0,0,9.223845,49.14143,10279.16,0,67.61215,-9.223846,3.05E+07
13.132,-9.227254,-10306.45,60.13521,0,0,0,0,0,9.227254,49.15958,10306.45,0,67.64786,-9.227254,3.06E+07
13.332,-9.230543,-10336.12,60.30832,0,0,0,0,0,9.230542,49.1771,10336.12,0,67.68232,-9.230543,3.07E+07
13.532,-9.233831,-10361.75,60.45782,0,0,0,0,0,9.233831,49.19463,10361.75,0,67.7168,-9.233831,3.07E+07
13.732,-9.237239,-10389.67,60.62074,0,0,0,0,0,9.237239,49.21278,10389.67,0,67.75254,-9.237239,3.08E+07
13.932,-9.240288,-10412.54,60.75416,0,0,0,0,0,9.240288,49.22903,10412.54,0,67.78454,-9.240288,3.08E+07
14.132,-9.244054,-10444.77,60.94227,0,0,0,0,0,9.244054,49.24909,10444.77,0,67.82406,-9.244054,3.09E+07
14.332,-9.247104,-10468.51,61.08074,0,0,0,0,0,9.247105,49.26534,10468.51,0,67.85609,-9.247104,3.10E+07
14.532,-9.250632,-10495.67,61.23922,0,0,0,0,0,9.250631,49.28413,10495.67,0,67.89313,-9.250632,3.11E+07
14.732,-9.25398,-10522.58,61.39622,0,0,0,0,0,9.253979,49.30197,10522.58,0,67.92831,-9.25398,3.11E+07
14.932,-9.257089,-10546.64,61.5366,0,0,0,0,0,9.257089,49.31853,10546.64,0,67.96099,-9.257089,3.12E+07
15.132,-9.260317,-10570.88,61.67807,0,0,0,0,0,9.260317,49.33574,10570.88,0,67.99493,-9.260317,3.12E+07
15.332,-9.263845,-10598.74,61.8406,0,0,0,0,0,9.263844,49.35453,10598.74,0,68.03203,-9.263845,3.13E+07
15.532,-9.267014,-10623.56,61.98541,0,0,0,0,0,9.267015,49.37141,10623.56,0,68.06539,-9.267014,3.14E+07
15.732,-9.270541,-10650.24,62.1411,0,0,0,0,0,9.270541,49.3902,10650.24,0,68.1025,-9.270541,3.14E+07
15.932,-9.274009,-10676.72,62.29561,0,0,0,0,0,9.27401,49.40868,10676.72,0,68.13902,-9.274009,3.15E+07
16.132,-9.277058,-10699.59,62.42907,0,0,0,0,0,9.277059,49.42493,10699.59,0,68.17114,-9.277058,3.16E+07
16.198,-9.278195,-10707.11,62.47295,0,0,0,0,0,9.278194,49.43098,10707.11,0,68.1831,-9.278195,3.16E+07