Folder: bamboo (part 2)

File: bamboo-r-9mm.csv
Time sec,Extension mm,Load kgf,Compressive stress MPa,Cycle Count ,Total Cycle Count ,Repetitions Count ,Marked Data ,PIP Count ,Compressive extension mm,Compressive strain %,Compressive load kgf,Displacement (Strain 1) mm,True strain %,Corrected Position mm,True stress Pa
0,0,-0.02458734,0.0001434601,0,0,0,0,0,0,0,0.02458734,0,0,0,143.4601
4.4,-0.07336172,-1.751286,0.01021825,0,0,0,0,0,0.07336172,0.3908456,1.751286,0,0.3916114,-0.07336172,10178.32
8.8,-0.1467234,-8.09968,0.04725931,0,0,0,0,0,0.1467234,0.7816912,8.09968,0,0.7847624,-0.1467234,46889.89
13.2,-0.2200254,-25.62266,0.1495009,0,0,0,0,0,0.2200254,1.172218,25.62266,0,1.179143,-0.2200254,147748.4
17.6,-0.2933273,-86.83416,0.5066524,0,0,0,0,0,0.2933273,1.562745,86.83416,0,1.575085,-0.2933273,498734.8
22,-0.366689,-288.1405,1.681217,0,0,0,0,0,0.366689,1.953591,288.1405,0,1.972926,-0.366689,1648373
26.4,-0.4399311,-568.9012,3.319376,0,0,0,0,0,0.4399311,2.343799,568.9012,0,2.371703,-0.4399311,3241576
30.8,-0.5131733,-851.0984,4.965916,0,0,0,0,0,0.5131733,2.734008,851.0984,0,2.772077,-0.5131733,4830147
35.2,-0.5865948,-1173.431,6.846632,0,0,0,0,0,0.5865948,3.125172,1173.431,0,3.175047,-0.5865948,6632663
39.6,-0.659837,-1535.466,8.959003,0,0,0,0,0,0.6598369,3.515381,1535.466,0,3.578658,-0.659837,8644061
44,-0.7331986,-1942.685,11.33501,0,0,0,0,0,0.7331986,3.906226,1942.684,0,3.984566,-0.7331986,10900000
48.4,-0.8065603,-2371.958,13.83969,0,0,0,0,0,0.8065603,4.297071,2371.958,0,4.392129,-0.8065603,13200000
52.8,-0.8798025,-2799.251,16.33283,0,0,0,0,0,0.8798025,4.68728,2799.251,0,4.800691,-0.8798025,15600000
57.2,-0.953224,-3179.04,18.54879,0,0,0,0,0,0.953224,5.078444,3179.04,0,5.211937,-0.953224,17600000
61.6,-1.026645,-3491.428,20.37148,0,0,0,0,0,1.026645,5.469608,3491.428,0,5.62488,-1.026645,19300000
66,-1.099828,-3731.426,21.7718,0,0,0,0,0,1.099828,5.859499,3731.426,0,6.038183,-1.099828,20500000
70.4,-1.173309,-3911.114,22.82023,0,0,0,0,0,1.173309,6.250981,3911.115,0,6.454899,-1.173309,21400000
74.8,-1.246611,-4041.869,23.58315,0,0,0,0,0,1.246611,6.641508,4041.869,0,6.872335,-1.246611,22000000
79.20001,-1.319853,-4150.089,24.21458,0,0,0,0,0,1.319853,7.031716,4150.089,0,7.291179,-1.319853,22500000
83.60001,-1.393275,-4245.44,24.77092,0,0,0,0,0,1.393275,7.422881,4245.439,0,7.712817,-1.393275,22900000
88.00001,-1.466517,-4331.89,25.27534,0,0,0,0,0,1.466517,7.813089,4331.89,0,8.135203,-1.466517,23300000
92.4,-1.539879,-4413.947,25.75411,0,0,0,0,0,1.539879,8.203935,4413.946,0,8.560075,-1.539879,23600000
96.8,-1.61336,-4491.311,26.20551,0,0,0,0,0,1.61336,8.595418,4491.311,0,8.987458,-1.61336,24000000
101.2,-1.686662,-4555.551,26.58034,0,0,0,0,0,1.686662,8.985945,4555.551,0,9.415624,-1.686662,24200000
105.6,-1.760023,-4606.115,26.87536,0,0,0,0,0,1.760023,9.37679,4606.115,0,9.845982,-1.760023,24400000
110,-1.833326,-4644.977,27.10211,0,0,0,0,0,1.833326,9.767318,4644.977,0,10.27785,-1.833326,24500000
114.4,-1.906747,-4678.392,27.29708,0,0,0,0,0,1.906747,10.15848,4678.392,0,10.7123,-1.906747,24500000
118.8,-1.980049,-4705.664,27.4562,0,0,0,0,0,1.980049,10.54901,4705.664,0,11.14793,-1.980049,24600000
123.2,-2.053351,-4733.582,27.6191,0,0,0,0,0,2.053351,10.93954,4733.582,0,11.58547,-2.053351,24600000
127.6,-2.126712,-4759.376,27.76959,0,0,0,0,0,2.126712,11.33038,4759.375,0,12.02529,-2.126712,24600000
132,-2.200134,-4783.903,27.9127,0,0,0,0,0,2.200134,11.72155,4783.903,0,12.46741,-2.200134,24600000
136.4,-2.273257,-4806.779,28.04618,0,0,0,0,0,2.273257,12.11112,4806.779,0,12.90969,-2.273257,24600000
140.8,-2.346678,-4830.197,28.18282,0,0,0,0,0,2.346678,12.50228,4830.197,0,13.35574,-2.346678,24700000
145.2,-2.42004,-4854.64,28.32543,0,0,0,0,0,2.42004,12.89313,4854.64,0,13.80344,-2.42004,24700000
149.6,-2.493222,-4874.511,28.44138,0,0,0,0,0,2.493222,13.28302,4874.511,0,14.25204,-2.493222,24700000
154,-2.566703,-4901.348,28.59796,0,0,0,0,0,2.566704,13.6745,4901.348,0,14.70451,-2.566703,24700000
158.4,-2.640125,-4924.92,28.7355,0,0,0,0,0,2.640125,14.06566,4924.92,0,15.15867,-2.640125,24700000
162.8,-2.713248,-4942.578,28.83853,0,0,0,0,0,2.713248,14.45524,4942.578,0,15.61304,-2.713248,24700000
167.2,-2.786729,-4965.84,28.97425,0,0,0,0,0,2.786729,14.84672,4965.84,0,16.07172,-2.786729,24700000
171.6,-2.86015,-4985.985,29.09179,0,0,0,0,0,2.86015,15.23788,4985.985,0,16.53215,-2.86015,24700000
176,-2.933333,-5006.15,29.20945,0,0,0,0,0,2.933333,15.62777,5006.149,0,16.99319,-2.933333,24600000
180.4,-3.006694,-5029.974,29.34846,0,0,0,0,0,3.006694,16.01862,5029.974,0,17.4575,-3.006694,24600000
184.8,-3.080116,-5054.398,29.49096,0,0,0,0,0,3.080116,16.40978,5054.398,0,17.92437,-3.080116,24700000
189.2,-3.153358,-5074.544,29.60851,0,0,0,0,0,3.153358,16.79999,5074.543,0,18.39227,-3.153358,24600000
193.6,-3.22666,-5099.424,29.75368,0,0,0,0,0,3.22666,17.19052,5099.424,0,18.86276,-3.22666,24600000
198,-3.300081,-5122.548,29.8886,0,0,0,0,0,3.300081,17.58168,5122.548,0,19.33624,-3.300081,24600000
202.4,-3.373324,-5148.963,30.04272,0,0,0,0,0,3.373324,17.97189,5148.963,0,19.81082,-3.373324,24600000
206.8,-3.446566,-5178.358,30.21424,0,0,0,0,0,3.446566,18.3621,5178.358,0,20.28765,-3.446566,24700000
211.2,-3.519868,-5206.227,30.37684,0,0,0,0,0,3.519868,18.75262,5206.227,0,20.76717,-3.519868,24700000
215.6,-3.593289,-5235.213,30.54597,0,0,0,0,0,3.593289,19.14379,5235.213,0,21.24978,-3.593289,24700000
220,-3.666531,-5256.905,30.67253,0,0,0,0,0,3.666531,19.534,5256.905,0,21.73354,-3.666531,24700000
224.4,-3.739833,-5256.77,30.67175,0,0,0,0,0,3.739833,19.92452,5256.771,0,22.22005,-3.739833,24600000
228.8,-3.813434,-5248.369,30.62273,0,0,0,0,0,3.813434,20.31664,5248.369,0,22.71095,-3.813434,24400000
233.2,-3.886557,-5280.856,30.81228,0,0,0,0,0,3.886557,20.70621,5280.856,0,23.20104,-3.886557,24400000
237.6,-3.959859,-5320.531,31.04377,0,0,0,0,0,3.959859,21.09674,5320.531,0,23.69477,-3.959859,24500000
242,-4.0334,-5362.096,31.2863,0,0,0,0,0,4.0334,21.48854,5362.096,0,24.19256,-4.0334,24600000
246.4,-4.106582,-5396.729,31.48837,0,0,0,0,0,4.106582,21.87843,5396.729,0,24.6904,-4.106582,24600000
250.8,-4.179884,-5432.217,31.69543,0,0,0,0,0,4.179884,22.26896,5432.217,0,25.19155,-4.179884,24600000
255.2,-4.253186,-5455.98,31.83408,0,0,0,0,0,4.253186,22.65949,5455.98,0,25.69523,-4.253186,24600000
259.6,-4.326548,-5495.219,32.06303,0,0,0,0,0,4.326548,23.05033,5495.219,0,26.20187,-4.326548,24700000
264,-4.39985,-5533.884,32.28863,0,0,0,0,0,4.399849,23.44086,5533.884,0,26.71067,-4.39985,24700000
268.4,-4.473092,-5566.425,32.4785,0,0,0,0,0,4.473092,23.83107,5566.425,0,27.22165,-4.473092,24700000
272.8,-4.546513,-5581.929,32.56896,0,0,0,0,0,4.546513,24.22223,5581.929,0,27.73652,-4.546513,24700000
277.2,-4.619935,-5593.642,32.6373,0,0,0,0,0,4.619935,24.6134,5593.643,0,28.25406,-4.619935,24600000
281.6,-4.693177,-5606.138,32.71021,0,0,0,0,0,4.693177,25.00361,5606.138,0,28.77302,-4.693177,24500000
286,-4.766598,-5629.059,32.84394,0,0,0,0,0,4.766598,25.39477,5629.059,0,29.29596,-4.766598,24500000
290.4,-4.83996,-5606.865,32.71445,0,0,0,0,0,4.83996,25.78562,5606.865,0,29.82122,-4.83996,24300000
294.8,-4.913262,-5566.949,32.48156,0,0,0,0,0,4.913262,26.17614,5566.949,0,30.34882,-4.913262,24000000
299.2,-4.986624,-5598.262,32.66426,0,0,0,0,0,4.986624,26.56699,5598.262,0,30.87966,-4.986624,24000000
303.6,-5.059986,-5645.33,32.93888,0,0,0,0,0,5.059986,26.95783,5645.33,0,31.41333,-5.059986,24100000
[...]5639.78782000007.07321737.683636819.156047.2946-7.0732172.48E+07424.5-7.075011-6822.6439.80815000007.07501137.693196822.64047.30994-7.0750112.48E+07424.6-7.076805-6824.64139.81983000007.07680537.702746824.641047.32528-7.0768052.48E+07424.7-7.078359-6825.55239.82514000007.0783637.711036825.552047.33858-7.0783592.48E+07424.8-7.079914-6824.21939.81736000007.07991437.719316824.219047.35187-7.0799142.48E+07424.9-7.081648-6826.24939.82921000007.08164837.728546826.249047.3667-7.0816482.48E+07425-7.083322-6826.79839.83241000007.08332237.737466826.797047.38103-7.0833222.48E+07425.1-7.084936-6828.66739.84332000007.08493637.746066828.667047.39484-7.0849362.48E+07425.2-7.08655-6829.38639.84751000007.0865537.754676829.386047.40866-7.086552.48E+07425.3-7.088284-6831.96639.86256000007.08828437.76396831.966047.4235-7.0882842.48E+07425.4-7.089899-6832.55539.866000007.08989937.77256832.555047.43732-7.0898992.48E+07425.5-7.091693-6834.4539.87706000007.09169237.782066834.45047.45268-7.0916932.48E+07425.6-7.093307-6835.65539.88409000007.09330737.790666835.655047.46651-7.0933072.48E+07425.7-7.095041-6837.65939.89578000007.09504137.79996837.659047.48135-7.0950412.48E+07425.8-7.096535-6836.23339.88746000007.09653537.807866836.233047.49416-7.0965352.48E+07425.9-7.098329-6838.68539.90177000007.0983337.817426838.685047.50953-7.0983292.48E+07426-7.100063-6841.34439.91728000007.10006337.826656841.344047.52438-7.1000632.48E+07426.1-7.101737-6842.87139.92619000007.10173737.835586842.872047.53873-7.1017372.48E+07426.2-7.103112-6842.69239.92514000007.10311237.84296842.691047.55051-7.1031122.48E+07426.3-7.104786-6841.96339.92089000007.10478637.851826841.963047.56486-7.1047862.48E+07426.4-7.10664-6845.10339.93921000007.1066437.861696845.103047.58076-7.106642.48E+07426.5-7.108434-6846.83739.94933000007.10843437.871256846.837047.59613-7.1084342.48E+07426.6-7.110048-6848.50439.95906000007.11004837.879856848.504047.60998-7.1100482.48E+07426.7-7.111602-6848.27839.95774000007.11160237.888136848.278047.62331-7.1116022.48E+07426.8-7.113217-6850.3239.96965000007.11321637.896736850.32047.63716-7.1132172.48E+07426.9-7.115011-6851.65439.97744000007.11501137.906296851.654047.65255-7.1150112.48E+07427-7.116625-6854.33339.99307000007.11662537.914896854.333047.6664-7.1166252.48E+07427.1-7.118359-6854.55339.99435000007.11835937.924136854.553047.68128-7.1183592.48E+07427.2-7.120033-6855.94340.00246000007.12003337.933046855.943047.69565-7.1200332.48E+07427.3-7.121587-6854.63639.99484000007.12158737.941336854.636047.70899-7.1215872.48E+07427.4-7.123261-6856.91440.00813000007.12326137.950246856.914047.72336-7.1232612.48E+07427.5-7.124876-6857.23940.01003000007.12487637.958856857.239047.73723-7.1248762.48E+07427.6-7.126729-6861.08940.03249000007.12672937.968726861.089047.75314-7.1267292.48E+07427.7-7.128344-6861.77640.0365000007.12834337.977326861.776047.76701-7.1283442.48E+07427.8-7.130018-6863.79540.04828000007.13001737.986246863.795047.78139-7.1300182.48E+07427.9-7.131512-6863.6840.04761000007.13151237.994216863.68047.79423-7.1315122.48E+07428-7.133246-6863.77740.04817000007.13324638.003446863.777047.80913-7.1332462.48E+07428.1-7.13486-6864.76540.05394000007.13486138.012046864.765047.82301-7.134862.48E+07428.2-7.136774-6868.1640.07375000007.13677438.022246868.16047.83945-7.1367742.48E+07428.3-7.138448-6870.38640.08673000007.13844838.031156870.386047.85384-7.1384482.48E+07428.4-7.140003-6871.38440.09256000007.14000338.039446871.384047.86722-7.1400032.48E+07428.5-7.141557-6872.07940.09661000007.14155738.047726872.079047.88057-7.1415572.48E+07428.6-7.143231-6872.60640.09969000007.14323138.056646872.605047.89497-7.1432312.48E+07428.7-7.144845-6873.88240.,,

File: bamboo-r-18mm.csv
Time sec,Extension mm,Load kgf,Compressive stress MPa,Cycle Count ,Total Cycle Count ,Repetitions Count ,Marked Data ,PIP Count ,Compressive extension mm,Compressive strain %,Compressive load kgf,Displacement (Strain 1) mm,True strain %,Corrected Position mm,True stress Pa
0,-9.006092,-6606.691,38.54815,0,0,0,0,0,9.006091,47.98131,6606.691,0,65.3567,-9.006092,20100000
0.9600001,-9.021757,-6786.808,39.59908,0,0,0,0,0,9.021757,48.06477,6786.808,0,65.51728,-9.021757,20600000
1.96,-9.038798,-6976.915,40.7083,0,0,0,0,0,9.038797,48.15556,6976.915,0,65.69224,-9.038798,21100000
2.96,-9.055359,-7156.187,41.7543,0,0,0,0,0,9.055359,48.24379,7156.187,0,65.86257,-9.055359,21600000
3.96,-9.07204,-7321.727,42.72018,0,0,0,0,0,9.07204,48.33266,7321.727,0,66.03443,-9.07204,22100000
4.96,-9.088782,-7492.702,43.71777,0,0,0,0,0,9.088781,48.42185,7492.702,0,66.20721,-9.088782,22500000
5.96,-9.105284,-7654.129,44.65965,0,0,0,0,0,9.105284,48.50977,7654.129,0,66.37781,-9.105284,23000000
6.96,-9.122144,-7819.772,45.62613,0,0,0,0,0,9.122144,48.59959,7819.772,0,66.55241,-9.122144,23500000
7.96,-9.138586,-7977.607,46.54705,0,0,0,0,0,9.138586,48.68719,7977.607,0,66.72298,-9.138586,23900000
8.96,-9.155446,-8132.29,47.44958,0,0,0,0,0,9.155446,48.77702,8132.291,0,66.89819,-9.155446,24300000
9.96,-9.172008,-8278.964,48.30538,0,0,0,0,0,9.172009,48.86525,8278.964,0,67.0706,-9.172008,24700000
10.96,-9.18851,-8416.463,49.10766,0,0,0,0,0,9.18851,48.95317,8416.464,0,67.24267,-9.18851,25100000
11.96,-9.205551,-8559.68,49.94328,0,0,0,0,0,9.205551,49.04396,8559.68,0,67.42068,-9.205551,25400000
12.96,-9.221933,-8689.491,50.70069,0,0,0,0,0,9.221933,49.13124,8689.491,0,67.59212,-9.221933,25800000
13.96,-9.238973,-8820.14,51.46299,0,0,0,0,0,9.238974,49.22202,8820.14,0,67.77074,-9.238973,26100000
14.96,-9.255295,-8932.862,52.12069,0,0,0,0,0,9.255295,49.30898,8932.862,0,67.94214,-9.255295,26400000
15.96,-9.271976,-9046.224,52.78213,0,0,0,0,0,9.271976,49.39785,9046.225,0,68.11761,-9.271976,26700000
16.96,-9.288478,-9153.378,53.40734,0,0,0,0,0,9.288479,49.48577,9153.378,0,68.29151,-9.288478,27000000
17.96,-9.30522,-9254.674,53.99838,0,0,0,0,0,9.30522,49.57496,9254.675,0,68.46823,-9.30522,27200000
18.96,-9.32214,-9325.06,54.40906,0,0,0,0,0,9.322141,49.6651,9325.061,0,68.64716,-9.32214,27400000
19.96,-9.338761,-9341.061,54.50241,0,0,0,0,0,9.338761,49.75366,9341.061,0,68.82324,-9.338761,27400000
20.96,-9.355263,-9407.12,54.88785,0,0,0,0,0,9.355264,49.84157,9407.12,0,68.99837,-9.355263,27500000
21.96,-9.372184,-9470.844,55.25967,0,0,0,0,0,9.372184,49.93172,9470.845,0,69.17825,-9.372184,27700000
22.96,-9.388506,-9531.65,55.61445,0,0,0,0,0,9.388506,50.01868,9531.65,0,69.35209,-9.388506,27800000
23.96,-9.405307,-9592.346,55.96859,0,0,0,0,0,9.405307,50.10819,9592.346,0,69.53133,-9.405307,27900000
24.96,-9.422048,-9612.551,56.08649,0,0,0,0,0,9.422048,50.19738,9612.552,0,69.71025,-9.422048,27900000
25.96,-9.43873,-9655.354,56.33623,0,0,0,0,0,9.438729,50.28625,9655.354,0,69.88887,-9.43873,28000000
26.96,-9.45547,-9696.518,56.5764,0,0,0,0,0,9.455469,50.37544,9696.518,0,70.06843,-9.45547,28100000
27.96,-9.472032,-9726.568,56.75174,0,0,0,0,0,9.472032,50.46368,9726.567,0,70.2464,-9.472032,28100000
28.96,-9.488833,-9761.712,56.95679,0,0,0,0,0,9.488833,50.55318,9761.712,0,70.42726,-9.488833,28200000
29.96,-9.505574,-9791.218,57.12895,0,0,0,0,0,9.505574,50.64238,9791.218,0,70.6078,-9.505574,28200000
30.96,-9.521956,-9813.218,57.25732,0,0,0,0,0,9.521955,50.72965,9813.218,0,70.78477,-9.521956,28200000
31.96,-9.538757,-9823.415,57.31681,0,0,0,0,0,9.538757,50.81916,9823.415,0,70.96662,-9.538757,28200000
32.96,-9.555319,-9844.678,57.44087,0,0,0,0,0,9.555319,50.9074,9844.678,0,71.14618,-9.555319,28200000
33.96,-9.572,-9865.728,57.56369,0,0,0,0,0,9.572001,50.99627,9865.728,0,71.32739,-9.572,28200000
34.96,-9.588682,-9878.033,57.63549,0,0,0,0,0,9.588681,51.08514,9878.033,0,71.5089,-9.588682,28200000
35.96,-9.605482,-9899.033,57.75803,0,0,0,0,0,9.605482,51.17465,9899.033,0,71.69205,-9.605482,28200000
36.96,-9.622343,-9915.042,57.85143,0,0,0,0,0,9.622343,51.26448,9915.042,0,71.8762,-9.622343,28200000
37.96,-9.638546,-9859.503,57.52737,0,0,0,0,0,9.638546,51.3508,9859.503,0,72.05349,-9.638546,28000000
38.96,-9.655646,-9862.61,57.54551,0,0,0,0,0,9.655645,51.44191,9862.61,0,72.24093,-9.655646,27900000
39.96,-9.671788,-9873.418,57.60857,0,0,0,0,0,9.671788,51.52791,9873.418,0,72.4182,-9.671788,27900000
40.96,-9.688709,-9890.606,57.70885,0,0,0,0,0,9.688709,51.61806,9890.606,0,72.60435,-9.688709,27900000
41.96,-9.70557,-9899.385,57.76007,0,0,0,0,0,9.70557,51.70789,9899.385,0,72.79019,-9.70557,27900000
42.96,-9.722072,-9870.29,57.59032,0,0,0,0,0,9.722072,51.7958,9870.29,0,72.9724,-9.722072,27800000
43.96,-9.738813,-9887.152,57.6887,0,0,0,0,0,9.738812,51.88499,9887.151,0,73.1576,-9.738813,27800000
44.96,-9.755255,-9907.887,57.80969,0,0,0,0,0,9.755256,51.97259,9907.888,0,73.33983,-9.755255,27800000
45.96,-9.771996,-9934.211,57.96328,0,0,0,0,0,9.771996,52.06178,9934.211,0,73.52571,-9.771996,27800000
46.96,-9.788797,-9964.854,58.14207,0,0,0,0,0,9.788797,52.15129,9964.854,0,73.71261,-9.788797,27800000
47.96,-9.805299,-9987.013,58.27136,0,0,0,0,0,9.8053,52.23921,9987.014,0,73.89651,-9.805299,27800000
48.96,-9.822339,-9997.158,58.33055,0,0,0,0,0,9.822339,52.32999,9997.158,0,74.08677,-9.822339,27800000
49.96,-9.838542,-10015.95,58.44021,0,0,0,0,0,9.838542,52.41631,10015.95,0,74.26802,-9.838542,27800000
50.96,-9.855463,-10047.13,58.62214,0,0,0,0,0,9.855463,52.50646,10047.13,0,74.45765,-9.855463,27800000
51.96,-9.872203,-10061.95,58.7086,0,0,0,0,0,9.872203,52.59565,10061.95,0,74.64562,-9.872203,27800000
52.96,-9.888706,-10015.68,58.43864,0,0,0,0,0,9.888706,52.68357,10015.68,0,74.83126,-9.888706,27700000
53.96,-9.905506,-10037.33,58.56495,0,0,0,0,0,9.905506,52.77308,10037.33,0,75.0206,-9.905506,27700000
54.96,-9.921949,-10054.29,58.66389,0,0,0,0,0,9.921948,52.86068,10054.29,0,75.20626,-9.921949,27700000
55.96,-9.938809,-10033.17,58.54066,0,0,0,0,0,9.938809,52.9505,10033.17,0,75.397,-9.938809,27500000
56.96,-9.955311,-10044.48,58.60668,0,0,0,0,0,9.955311,53.03842,10044.48,0,75.58403,-9.955311,27500000
57.96,-9.972051,-10076.4,58.7929,0,0,0,0,0,9.972052,53.12761,10076.4,0,75.77413,-9.972051,27600000
58.96,-9.988853,-10101.57,58.93974,0,0,0,0,0,9.988853,53.21711,10101.57,0,75.96528,-9.988853,27600000
59.96,-10.00541,-10092.33,58.88584,0,0,0,0,0,10.00541,53.30536,10092.33,0,76.15407,-10.00541,27500000
60.96,-10.02204,-10100.87,58.93565,0,0,0,0,0,10.02204,53.3939,10100.87,0,76.34388,-10.02204,27500000
61.96,-10.0389,-10128.48,59.09678,0,0,0,0,0,10.0389,53.48373,10128.48,0,76.5368,-10.0389,27500000
62.96,-10.05516,-10161.39,59.28878,0,0,0,0,0,10.05516,53.57037,10161.39,0,76.72324,-10.05516,27500000
63.96,-10.0722,-10200.23,59.51541,0,0,0,0,0,10.0722,53.66116,10200.23,0,76.91897,-10.0722,27600000
64.96001,-10.08864,-10165.46,59.31257,0,0,0,0,0,10.08864,53.74876,10165.46,0,77.10818,-10.08864,27400000
65.96001,-10.10538,-10196.49,59.49358,0,0,0,0,0,10.10538,53.83795,10196.49,0,77.30121,-10.10538,27500000
66.96001,-10.12212,-10229.31,59.68511,0,0,0,0,0,10.12212,53.92714,10229.31,0,77.49461,-10.12212,27500000
67.96001,-10.13857,-10215.08,59.60209,0,0,0,0,0,10.13857,54.01474,10215.08,0,77.68492,-10.13857,27400000
68.96001,-10.15537,-10241.36,59.75542,0,0,0,0,0,10.15537,54.10425,10241.36,0,77.87976,-10.15537,27400000
69.96001,-10.17193,-10281.53,59.98977,0,0,0,0,0,10.17193,54.19248,10281.53,0,78.07219,-10.17193,27500000
70.96001,-10.18873,-10269.15,59.91756,0,0,0,0,0,10.18873,54.28199,10269.15,0,78.26779,-10.18873,27400000
71.96001,-10.20559,-10304.01,60.12096,0,0,0,0,0,10.20559,54.37181,10304.01,0,78.46446,-10.20559,27400000
72.96001,-10.22191,-10339.96,60.3307,0,0,0,0,0,10.22191,54.45878,10339.96,0,78.65523,-10.22191,27500000
73.96001,-10.23883,-10328.61,60.26448,0,0,0,0,0,10.23883,54.54892,10328.61,0,78.85336,-10.23883,27400000
74.96001,-10.25527,-10361.61,60.45702,0,0,0,0,0,10.25527,54.63652,10361.61,0,79.04628,-10.25527,27400000
75.96001,-10.27231,-10402.2,60.69384,0,0,0,0,0,10.27231,54.7273,10402.2,0,79.2466,-10.27231,27500000
76.96001,-10.28888,-10393.13,60.64092,0,0,0,0,0,10.28888,54.81554,10393.13,0,79.4417,-10.28888,27400000
77.96001,-10.30532,-10432.45,60.87033,0,0,0,0,0,10.30532,54.90314,10432.45,0,79.63576,-10.30532,27500000
78.96001,-10.32218,-10470.99,61.09524,0,0,0,0,0,10.32218,54.99297,10470.99,0,79.83514,-10.32218,27500000
79.96001,-10.33856,-10462.73,61.04706,0,0,0,0,0,10.33856,55.08025,10462.73,0,80.02925,-10.33856,27400000
80.96001,-10.35542,-10499.73,61.26293,0,0,0,0,0,10.35542,55.17007,10499.73,0,80.22942,-10.35542,27500000
81.96001,-10.37216,-10535.38,61.47093,0,0,0,0,0,10.37216,55.25927,10535.38,0,80.42858,-10.37216,27500000
82.96001,-10.38878,-10580.45,61.73392,0,0,0,0,0,10.38878,55.34781,10580.45,0,80.62669,-10.38878,27600000
83.96001,-10.40535,-10569.1,61.66769,0,0,0,0,0,10.40535,55.43605,10569.1,0,80.8245,-10.40535,27500000
84.96001,-10.42215,-10600.88,61.85308,0,0,0,0,0,10.42215,55.52555,10600.88,0,81.02555,-10.42215,27500000
85.96001,-10.43871,-10644.98,62.11039,0,0,0,0,0,10.43871,55.61379,10644.98,0,81.22413,-10.43871,27600000
86.96001,-10.45533,-10634.68,62.0503,0,0,0,0,0,10.45533,55.70235,10634.68,0,81.42386,-10.45533,27500000
87.96001,-10.47201,-10667.54,62.24202,0,0,0,0,0,10.47201,55.79122,10667.54,0,81.62468,-10.47201,27500000
88.89201,-10.48768,-10707.1,62.47285,0,0,0,0,0,10.48768,55.87468,10707.1,0,81.81364,-10.48768,27600000